
                            Radial Profiles
                            ---------------

                          Partial Pressures, kPa
  J  dist,m   temp,K   CO2     H2O     CH4     CO      O2      N2        FV
  1   1.0000  1000.   7.500  15.600   0.000   0.000   0.000  77.000 0.0000E+00
wall             0.

 Total directional radiated energy flux =0.513236E+04 Watts/m-2/strad

 
        Spectral Intensity Distribution, Watts/m-2/micron/strad
        -------------------------------------------------------

  micron    intensity      tau        micron    intensity      tau
   1.005   0.0000E+00    1.0000        6.061   0.4915E+03    0.6713
   1.010   0.0000E+00    1.0000        6.154   0.3354E+03    0.7673
   1.015   0.0000E+00    1.0000        6.250   0.2727E+03    0.8036
   1.020   0.0000E+00    1.0000        6.349   0.3404E+03    0.7451
   1.026   0.0000E+00    1.0000        6.452   0.6448E+03    0.4976
   1.031   0.0000E+00    1.0000        6.557   0.8091E+03    0.3433
   1.036   0.0000E+00    1.0000        6.667   0.7785E+03    0.3409
   1.042   0.0000E+00    1.0000        6.780   0.6885E+03    0.3914
   1.047   0.0000E+00    1.0000        6.897   0.6503E+03    0.3990
   1.053   0.0000E+00    1.0000        7.018   0.5942E+03    0.4251
   1.058   0.0000E+00    1.0000        7.143   0.5493E+03    0.4429
   1.064   0.0000E+00    1.0000        7.273   0.5215E+03    0.4448
   1.070   0.0000E+00    1.0000        7.407   0.5007E+03    0.4397
   1.075   0.0000E+00    1.0000        7.547   0.4841E+03    0.4298
   1.081   0.9651E-03    1.0000        7.692   0.4359E+03    0.4587
   1.087   0.1912E-02    1.0000        7.843   0.3907E+03    0.4877
   1.093   0.1950E-01    0.9999        8.000   0.3224E+03    0.5528
   1.099   0.2775E-01    0.9998        8.163   0.2523E+03    0.6293
   1.105   0.3568E-01    0.9998        8.333   0.1841E+03    0.7129
   1.111   0.6768E-01    0.9996        8.511   0.1212E+03    0.7990
   1.117   0.1083E+00    0.9994        8.696   0.6940E+02    0.8774
   1.124   0.1362E+00    0.9993        8.889   0.5270E+02    0.9006
   1.130   0.1656E+00    0.9991        9.091   0.7467E+02    0.8494
   1.136   0.1990E+00    0.9990        9.132   0.7664E+02    0.8433
   1.143   0.2385E+00    0.9989        9.174   0.7706E+02    0.8403
   1.149   0.2572E+00    0.9988        9.217   0.7549E+02    0.8413
   1.156   0.3277E+00    0.9986        9.259   0.7153E+02    0.8475
   1.163   0.3571E+00    0.9985        9.302   0.6474E+02    0.8600
   1.170   0.3956E+00    0.9984        9.346   0.5462E+02    0.8802
   1.176   0.3955E+00    0.9985        9.390   0.3969E+02    0.9117
   1.183   0.4919E+00    0.9982        9.434   0.4519E+02    0.8980
   1.190   0.5085E+00    0.9982        9.479   0.5476E+02    0.8747
   1.198   0.3406E+00    0.9988        9.524   0.5999E+02    0.8607
   1.205   0.3874E+00    0.9987        9.569   0.6224E+02    0.8533
   1.212   0.3221E+00    0.9990        9.615   0.6201E+02    0.8517
   1.220   0.3861E+00    0.9988        9.662   0.5989E+02    0.8546
   1.227   0.1765E+00    0.9995        9.709   0.5643E+02    0.8610
   1.235   0.1500E+00    0.9996        9.756   0.5220E+02    0.8694
   1.242   0.1550E+00    0.9996        9.804   0.4795E+02    0.8782
   1.250   0.6845E-01    0.9998        9.852   0.4411E+02    0.8863
   1.258   0.6373E-01    0.9998        9.901   0.4115E+02    0.8923
   1.266   0.8317E-01    0.9998        9.950   0.3928E+02    0.8956
   1.274   0.1333E+00    0.9997       10.000   0.3839E+02    0.8963
   1.282   0.1996E+00    0.9996       10.050   0.3823E+02    0.8952
   1.290   0.2460E+00    0.9995       10.101   0.3814E+02    0.8937
   1.299   0.1109E+01    0.9978       10.152   0.3766E+02    0.8934
   1.307   0.1231E+01    0.9976       10.204   0.3641E+02    0.8953
   1.316   0.2961E+01    0.9945       10.256   0.3414E+02    0.9002
   1.325   0.7000E+01    0.9875       10.309   0.3074E+02    0.9087
   1.333   0.9231E+01    0.9841       10.363   0.2608E+02    0.9213
   1.342   0.2480E+02    0.9590       10.417   0.2208E+02    0.9322
   1.351   0.6064E+02    0.9035       10.471   0.2670E+02    0.9167
   1.361   0.8543E+02    0.8691       10.526   0.2980E+02    0.9055
   1.370   0.8545E+02    0.8739       10.582   0.3167E+02    0.8978
   1.379   0.7822E+02    0.8888       10.638   0.3231E+02    0.8940
   1.389   0.9072E+02    0.8758       10.695   0.3195E+02    0.8934
   1.399   0.9606E+02    0.8733       10.753   0.3082E+02    0.8954
   1.408   0.9294E+02    0.8818       10.811   0.2916E+02    0.8993
   1.418   0.9219E+02    0.8870       10.870   0.2738E+02    0.9038
   1.429   0.8614E+02    0.8982       10.929   0.2555E+02    0.9087
   1.439   0.7531E+02    0.9141       10.989   0.2386E+02    0.9132
   1.449   0.6666E+02    0.9267       11.050   0.2243E+02    0.9169
   1.460   0.5560E+02    0.9410       11.111   0.2132E+02    0.9196
   1.471   0.3470E+02    0.9644       11.173   0.2069E+02    0.9206
   1.481   0.3204E+02    0.9683       11.236   0.2031E+02    0.9207
   1.493   0.2705E+02    0.9741       11.299   0.2010E+02    0.9200
   1.504   0.2351E+02    0.9783       11.364   0.1982E+02    0.9197
   1.515   0.2039E+02    0.9818       11.429   0.1988E+02    0.9179
   1.527   0.1432E+02    0.9876       11.494   0.2002E+02    0.9158
   1.538   0.1234E+02    0.9897       11.561   0.2015E+02    0.9136
   1.550   0.7437E+01    0.9940       11.628   0.2026E+02    0.9115
   1.562   0.5328E+01    0.9958       11.696   0.2035E+02    0.9094
   1.575   0.4518E+01    0.9966       11.765   0.2043E+02    0.9073
   1.587   0.3553E+01    0.9974       11.834   0.2068E+02    0.9044
   1.600   0.2344E+01    0.9983       11.905   0.2090E+02    0.9014
   1.613   0.1702E+01    0.9988       11.976   0.2110E+02    0.8985
   1.626   0.1547E+01    0.9990       12.048   0.2275E+02    0.8884
   1.639   0.1433E+01    0.9991       12.121   0.2334E+02    0.8832
   1.653   0.1356E+01    0.9992       12.195   0.2918E+02    0.8510
   1.667   0.1294E+01    0.9992       12.270   0.2628E+02    0.8631
   1.681   0.1620E+01    0.9990       12.346   0.2803E+02    0.8510
   1.695   0.1779E+01    0.9990       12.422   0.3048E+02    0.8346
   1.709   0.2113E+01    0.9988       12.500   0.3215E+02    0.8219
   1.724   0.4877E+01    0.9974       12.579   0.3437E+02    0.8056
   1.739   0.1136E+02    0.9941       12.658   0.3698E+02    0.7864
   1.754   0.3351E+02    0.9830       12.739   0.4117E+02    0.7571
   1.770   0.7622E+02    0.9623       12.821   0.4518E+02    0.7278
   1.786   0.1495E+03    0.9281       12.903   0.4731E+02    0.7087
   1.802   0.2438E+03    0.8859       12.987   0.5194E+02    0.6732
   1.818   0.3116E+03    0.8579       13.072   0.5700E+02    0.6335
   1.835   0.3230E+03    0.8566       13.158   0.6303E+02    0.5857
   1.852   0.3417E+03    0.8521       13.245   0.6955E+02    0.5326
   1.869   0.4384E+03    0.8150       13.333   0.6729E+02    0.5376
   1.887   0.2901E+03    0.8807       13.423   0.8030E+02    0.4356
   1.905   0.2509E+03    0.8993       13.514   0.9173E+02    0.3405
   1.923   0.2923E+03    0.8855       13.605   0.8992E+02    0.3385
   1.942   0.3618E+03    0.8615       13.699   0.9023E+02    0.3207
   1.961   0.4035E+03    0.8491       13.793   0.1006E+03    0.2250
   1.980   0.3451E+03    0.8738       13.889   0.1171E+03    0.0760
   2.000   0.3990E+03    0.8573       13.986   0.1132E+03    0.0858
   2.010   0.2803E+03    0.9009       14.085   0.1093E+03    0.0961
   2.020   0.2627E+03    0.9081       14.184   0.1095E+03    0.0719
   2.030   0.1433E+03    0.9504       14.286   0.1079E+03    0.0631
   2.041   0.1423E+03    0.9513       14.388   0.1076E+03    0.0428
   2.051   0.1509E+03    0.9489       14.493   0.1074E+03    0.0202
   2.062   0.1215E+03    0.9592       14.599   0.1054E+03    0.0143
   2.073   0.1287E+03    0.9573       14.706   0.1025E+03    0.0172
   2.083   0.4002E+02    0.9868       14.815   0.1012E+03    0.0048
   2.094   0.1477E+02    0.9952       14.925   0.9908E+02    0.0004
   2.105   0.6157E+01    0.9980       15.038   0.9654E+02    0.0005
   2.116   0.5540E+01    0.9982       15.152   0.9225E+02    0.0198
   2.128   0.5155E+01    0.9984       15.267   0.9024E+02    0.0157
   2.139   0.4585E+01    0.9986       15.385   0.8808E+02    0.0134
   2.151   0.4031E+01    0.9987       15.504   0.8401E+02    0.0335
   2.162   0.3904E+01    0.9988       15.625   0.7919E+02    0.0641
   2.174   0.3704E+01    0.9989       15.748   0.7619E+02    0.0746
   2.186   0.3792E+01    0.9989       15.873   0.7249E+02    0.0950
   2.198   0.3966E+01    0.9988       16.000   0.6745E+02    0.1343
   2.210   0.4368E+01    0.9987       16.129   0.6382E+02    0.1576
   2.222   0.4705E+01    0.9986       16.260   0.6670E+02    0.0943
   2.235   0.4873E+01    0.9986       16.393   0.6267E+02    0.1244
   2.247   0.7045E+01    0.9980       16.529   0.5662E+02    0.1858
   2.260   0.7306E+01    0.9979       16.667   0.5252E+02    0.2225
   2.273   0.9408E+01    0.9973       16.807   0.5332E+02    0.1872
   2.286   0.1105E+02    0.9969       16.949   0.4975E+02    0.2187
   2.299   0.1447E+02    0.9959       17.094   0.4658E+02    0.2463
   2.312   0.1655E+02    0.9954       17.241   0.4445E+02    0.2587
   2.326   0.2104E+02    0.9942       17.391   0.4271E+02    0.2656
   2.339   0.2375E+02    0.9935       17.544   0.4159E+02    0.2624
   2.353   0.2891E+02    0.9921       17.699   0.4099E+02    0.2500
   2.367   0.3214E+02    0.9913       17.857   0.3957E+02    0.2529
   2.381   0.5434E+02    0.9853       18.018   0.3876E+02    0.2446
   2.395   0.6835E+02    0.9817       18.182   0.3789E+02    0.2373
   2.410   0.1152E+03    0.9693       18.349   0.3705E+02    0.2298
   2.424   0.1771E+03    0.9530       18.519   0.3606E+02    0.2253
   2.439   0.2998E+03    0.9210       18.692   0.3516E+02    0.2192
   2.454   0.4821E+03    0.8736       18.868   0.3408E+02    0.2174
   2.469   0.7588E+03    0.8021       19.048   0.3319E+02    0.2116
   2.484   0.1079E+04    0.7200       19.231   0.3229E+02    0.2063
   2.500   0.1419E+04    0.6337       19.417   0.3147E+02    0.1991
   2.516   0.1678E+04    0.5689       19.608   0.3063E+02    0.1926
   2.532   0.1873E+04    0.5209       19.802   0.2979E+02    0.1866
   2.548   0.1973E+04    0.4976       20.000   0.2894E+02    0.1811
   2.564   0.1856E+04    0.5293       20.202   0.2811E+02    0.1752
   2.581   0.1907E+04    0.5183       20.408   0.2728E+02    0.1697
   2.597   0.1566E+04    0.6058       20.619   0.2645E+02    0.1647
   2.614   0.1448E+04    0.6370       20.833   0.2561E+02    0.1601
   2.632   0.1186E+04    0.7036       21.053   0.2479E+02    0.1559
   2.649   0.9778E+03    0.7564       21.277   0.2399E+02    0.1510
   2.667   0.3137E+04    0.2206       21.505   0.2320E+02    0.1464
   2.685   0.3241E+04    0.1969       21.739   0.2242E+02    0.1423
   2.703   0.3348E+04    0.1724       21.978   0.2164E+02    0.1384
   2.721   0.3066E+04    0.2440       22.222   0.2088E+02    0.1348
   2.740   0.2666E+04    0.3439       22.472   0.2012E+02    0.1316
   2.759   0.2412E+04    0.4074       22.727   0.1937E+02    0.1285
   2.778   0.2698E+04    0.3383       22.989   0.1864E+02    0.1257
   2.797   0.2723E+04    0.3329       23.256   0.1792E+02    0.1231
   2.817   0.2754E+04    0.3261       23.529   0.1722E+02    0.1206
   2.837   0.2587E+04    0.3676       23.810   0.1653E+02    0.1184
   2.857   0.2297E+04    0.4388       24.096   0.1586E+02    0.1164
   2.878   0.1946E+04    0.5246       24.390   0.1520E+02    0.1145
   2.899   0.1723E+04    0.5793       24.691   0.1456E+02    0.1127
   2.920   0.1494E+04    0.6351       25.000   0.1393E+02    0.1110
   2.941   0.1319E+04    0.6778       25.316   0.1332E+02    0.1099
   2.963   0.1168E+04    0.7143       25.641   0.1272E+02    0.1090
   2.985   0.1043E+04    0.7446       25.974   0.1214E+02    0.1081
   3.008   0.9050E+03    0.7783       26.316   0.1158E+02    0.1072
   3.030   0.8064E+03    0.8021       26.667   0.1103E+02    0.1064
   3.053   0.7052E+03    0.8267       27.027   0.1050E+02    0.1064
   3.077   0.5984E+03    0.8526       27.397   0.9981E+01    0.1064
   3.101   0.4797E+03    0.8816       27.778   0.9482E+01    0.1064
   3.125   0.3863E+03    0.9044       28.169   0.9000E+01    0.1065
   3.150   0.3474E+03    0.9138       28.571   0.8537E+01    0.1065
   3.175   0.2978E+03    0.9258       28.986   0.8083E+01    0.1073
   3.200   0.2429E+03    0.9393       29.412   0.7648E+01    0.1081
   3.226   0.2091E+03    0.9476       29.851   0.7229E+01    0.1089
   3.252   0.1723E+03    0.9566       30.303   0.6828E+01    0.1097
   3.279   0.1516E+03    0.9617       30.769   0.6443E+01    0.1105
   3.306   0.1331E+03    0.9662       31.250   0.6067E+01    0.1122
   3.333   0.1109E+03    0.9717       31.746   0.5708E+01    0.1138
   3.361   0.9894E+02    0.9746       32.258   0.5365E+01    0.1155
   3.390   0.8905E+02    0.9770       32.787   0.5037E+01    0.1172
   3.419   0.7141E+02    0.9814       33.333   0.4724E+01    0.1188
   3.448   0.6099E+02    0.9841       33.898   0.4421E+01    0.1215
   3.478   0.5073E+02    0.9866       34.483   0.4132E+01    0.1241
   3.509   0.4299E+02    0.9886       35.088   0.3857E+01    0.1268
   3.540   0.3699E+02    0.9901       35.714   0.3596E+01    0.1295
   3.571   0.3026E+02    0.9919       36.364   0.3349E+01    0.1322
   3.604   0.2238E+02    0.9939       37.037   0.3108E+01    0.1365
   3.636   0.1534E+02    0.9958       37.736   0.2880E+01    0.1409
   3.670   0.1357E+02    0.9963       38.462   0.2665E+01    0.1455
   3.704   0.1147E+02    0.9968       39.216   0.2462E+01    0.1502
   3.738   0.8130E+01    0.9977       40.000   0.2270E+01    0.1549
   3.774   0.7088E+01    0.9980       40.816   0.2086E+01    0.1614
   3.810   0.5624E+01    0.9984       41.667   0.1912E+01    0.1682
   3.846   0.5375E+01    0.9984       42.553   0.1750E+01    0.1753
   3.883   0.5342E+01    0.9984       43.478   0.1597E+01    0.1827
   3.922   0.5321E+01    0.9984       44.444   0.1454E+01    0.1905
   3.960   0.5116E+01    0.9985       45.455   0.1320E+01    0.1992
   4.000   0.5188E+01    0.9984       46.512   0.1195E+01    0.2085
   4.040   0.5922E+01    0.9982       47.619   0.1078E+01    0.2182
   4.082   0.6952E+01    0.9978       48.780   0.9695E+00    0.2286
   4.124   0.8066E+01    0.9974       50.000   0.8691E+00    0.2396
   4.167   0.9257E+01    0.9970       51.282   0.7768E+00    0.2507
   4.211   0.3048E+04    0.0014       52.632   0.6916E+00    0.2626
   4.255   0.3005E+04    0.0000       54.054   0.6132E+00    0.2753
   4.301   0.2956E+04    0.0000       55.556   0.5413E+00    0.2889
   4.348   0.2907E+04    0.0000       57.143   0.4755E+00    0.3035
   4.396   0.2857E+04    0.0000       58.824   0.4159E+00    0.3184
   4.444   0.2806E+04    0.0004       60.606   0.3617E+00    0.3346
   4.494   0.2620E+04    0.0494       62.500   0.3125E+00    0.3521
   4.545   0.1527E+04    0.4351       64.516   0.2681E+00    0.3713
   4.598   0.5167E+03    0.8051       66.667   0.2281E+00    0.3924
   4.651   0.2288E+03    0.9120       68.966   0.1936E+00    0.4116
   4.706   0.2047E+03    0.9196       71.429   0.1628E+00    0.4328
   4.762   0.2439E+03    0.9021       74.074   0.1355E+00    0.4562
   4.819   0.2840E+03    0.8835       76.923   0.1113E+00    0.4824
   4.878   0.3401E+03    0.8573       80.000   0.8999E-01    0.5121
   4.938   0.3871E+03    0.8337       83.333   0.7340E-01    0.5332
   5.000   0.4153E+03    0.8172       86.957   0.5904E-01    0.5565
   5.063   0.4428E+03    0.8002       90.909   0.4670E-01    0.5825
   5.128   0.4466E+03    0.7933       95.238   0.3616E-01    0.6120
   5.195   0.5573E+03    0.7353      100.000   0.2723E-01    0.6462
   5.263   0.5843E+03    0.7148      105.263   0.2094E-01    0.6672
   5.333   0.6073E+03    0.6953      111.111   0.1574E-01    0.6905
   5.405   0.6842E+03    0.6468      117.647   0.1150E-01    0.7168
   5.479   0.6767E+03    0.6403      125.000   0.8087E-02    0.7472
   5.556   0.7324E+03    0.5988      133.333   0.5372E-02    0.7834
   5.634   0.7286E+03    0.5883      142.857   0.3791E-02    0.7993
   5.714   0.7277E+03    0.5755      153.846   0.2582E-02    0.8168
   5.797   0.7479E+03    0.5492      166.667   0.1682E-02    0.8362
   5.882   0.6735E+03    0.5801      181.818   0.1032E-02    0.8582
   5.970   0.5559E+03    0.6412      200.000   0.5809E-03    0.8836



The effective absorption coef. is 0.334619E+00/m
The Planck-mean absorption coef. is 0.290665E+01/m
The wall-incident mean is 0.290665E+01/m






                            Radial Profiles
                            ---------------

                          Partial Pressures, kPa
  J  dist,m   temp,K   CO2     H2O     CH4     CO      O2      N2        FV
  1   1.0000  1000.   7.500  15.600   0.000   0.000   0.000  77.000 0.0000E+00
wall             0.

 Total directional radiated energy flux =0.125184E+04 Watts/m-2/strad

 
        Spectral Intensity Distribution, Watts/m-2/micron/strad
        -------------------------------------------------------

  micron    intensity      tau        micron    intensity      tau
   3.339   0.1085E+03    0.9723        4.008   0.5337E+01    0.9984
   3.367   0.9697E+02    0.9751        4.049   0.6130E+01    0.9981
   3.396   0.8553E+02    0.9779        4.090   0.7178E+01    0.9977
   3.425   0.6933E+02    0.9820        4.132   0.8308E+01    0.9974
   3.454   0.5894E+02    0.9846        4.175   0.2151E+04    0.3038
   3.484   0.4918E+02    0.9870        4.219   0.3041E+04    0.0006
   3.515   0.4178E+02    0.9889        4.264   0.2995E+04    0.0000
   3.546   0.3564E+02    0.9905        4.310   0.2947E+04    0.0000
   3.578   0.2868E+02    0.9923        4.357   0.2897E+04    0.0000
   3.610   0.2096E+02    0.9943        4.405   0.2847E+04    0.0000
   3.643   0.1498E+02    0.9959        4.454   0.2793E+04    0.0012
   3.676   0.1314E+02    0.9964        4.505   0.2490E+04    0.0932
   3.711   0.1080E+02    0.9970        4.556   0.1262E+04    0.5315
   3.745   0.7920E+01    0.9978        4.608   0.4181E+03    0.8417
   3.781   0.6793E+01    0.9981        4.662   0.2144E+03    0.9172
   3.817   0.5574E+01    0.9984        4.717   0.2115E+03    0.9166
   3.854   0.5368E+01    0.9984        4.773   0.2523E+03    0.8983
   3.891   0.5338E+01    0.9984        4.831   0.2964E+03    0.8778
   3.929   0.5280E+01    0.9984        4.890   0.3505E+03    0.8522
   3.968   0.5131E+01    0.9985        4.950   0.3933E+03    0.8302



The effective absorption coef. is 0.718888E-01/m
The Planck-mean absorption coef. is 0.199213E+01/m
The wall-incident mean is 0.199213E+01/m





