     PARAMETERS FOR PARTICLE DISTRIBUTION/SINGLE WAVENUMBER
     ******************************************************

     WAVENUMBER             = 0.100E+05 CM-1
     MINIMUM PARTICLE RADIUS= 0.100E-09 MICROM
     MAXIMUM PARTICLE RADIUS= 0.100E+11 MICROM
     REFRACTIVE INDEX       = 1.30149-1.62000E-06i
     PARTICLE DENSITY       = 7.400E+01 PER CM**3
     DISTRIBUTION FUNCTION: N(R)=1.61942E-04*R**7.6*EXP(-0.74074E+00*R**1.0)



     MIE-PARAMETERS ARE CALCULATED FOR  16.00000  < X < 216.00000


 INTEGRATION WITH   9 NODES, AND A DX =25.000

  ETA (CM-1)      1.000E+04
  KAPPA (CM-1)    1.250E-07
  SIGMA (CM-1)    3.675E-04
  BETA  (CM-1)    3.676E-04
  GCOS  ( -- )    8.691E-01
        A(  1)    2.60744
        A(  2)    4.02359
        A(  3)    4.85462
        A(  4)    5.53582
        A(  5)    6.29942
        A(  6)    6.88010
        A(  7)    7.63828
        A(  8)    8.43823
        A(  9)    9.15186
        A( 10)   10.07176
        A( 11)   10.83930
        A( 12)   11.61929
        A( 13)   12.45177
        A( 14)   13.15704
        A( 15)   13.94986
        A( 16)   14.78069
        A( 17)   15.49909
        A( 18)   16.35163
        A( 19)   17.07428
        A( 20)   17.79402
        A( 21)   18.52681
        A( 22)   19.14514
        A( 23)   19.80035
        A( 24)   20.43466
        A( 25)   21.00274
        A( 26)   21.66421
        A( 27)   22.23027
        A( 28)   22.84628
        A( 29)   23.45556
        A( 30)   24.01848
        A( 31)   24.61208
        A( 32)   25.17086
        A( 33)   25.66677
        A( 34)   26.22281
        A( 35)   26.68348
        A( 36)   27.16928
        A( 37)   27.61368
        A( 38)   28.05162
        A( 39)   28.48253
        A( 40)   28.90446
        A( 41)   29.29605
        A( 42)   29.73249
        A( 43)   30.10734
        A( 44)   30.50153
        A( 45)   30.89605
        A( 46)   31.26630
        A( 47)   31.64672
        A( 48)   32.01326
        A( 49)   32.36759
        A( 50)   32.73208
        A( 51)   33.05150
        A( 52)   33.39990
        A( 53)   33.70325
        A( 54)   34.01408
        A( 55)   34.28732
        A( 56)   34.57089
        A( 57)   34.80049
        A( 58)   35.04135
        A( 59)   35.24988
        A( 60)   35.41960
        A( 61)   35.61538
        A( 62)   35.74214
        A( 63)   35.89954
        A( 64)   36.03314
        A( 65)   36.13688
        A( 66)   36.29763
        A( 67)   36.37607
        A( 68)   36.54542
        A( 69)   36.64185
        A( 70)   36.76381
        A( 71)   36.87288
        A( 72)   36.91200
        A( 73)   36.96404
        A( 74)   36.89861
        A( 75)   36.82197
        A( 76)   36.73142
        A( 77)   36.64457
        A( 78)   36.61669
        A( 79)   36.57512
        A( 80)   36.53106
        A( 81)   36.47545
        A( 82)   36.38498
        A( 83)   36.29578
        A( 84)   36.19544
        A( 85)   36.11501
        A( 86)   36.05286
        A( 87)   35.96202
        A( 88)   35.90654
        A( 89)   35.76238
        A( 90)   35.70821
        A( 91)   35.54301
        A( 92)   35.43609
        A( 93)   35.26677
        A( 94)   35.10178
        A( 95)   34.88251
        A( 96)   34.69164
        A( 97)   34.39513
        A( 98)   34.17247
        A( 99)   33.83818
        A(100)   33.54784
        A(101)   33.18535
        A(102)   32.84912
        A(103)   32.44393
        A(104)   32.11517
        A(105)   31.69715
        A(106)   31.38200
        A(107)   31.01938
        A(108)   30.71862
        A(109)   30.43924
        A(110)   30.13049
        A(111)   29.86273
        A(112)   29.56776
        A(113)   29.21031
        A(114)   28.86785
        A(115)   28.46472
        A(116)   28.00495
        A(117)   27.59514
        A(118)   27.09730
        A(119)   26.66027
        A(120)   26.32291
        A(121)   26.00714
        A(122)   25.81761
        A(123)   25.62159
        A(124)   25.33219
        A(125)   25.13473
        A(126)   24.90096
        A(127)   24.72073
        A(128)   24.67218
        A(129)   24.52778
        A(130)   24.45729
        A(131)   24.34861
        A(132)   24.19925
        A(133)   24.09373
        A(134)   23.99795
        A(135)   23.80490
        A(136)   23.66198
        A(137)   23.31065
        A(138)   22.98915
        A(139)   22.60012
        A(140)   22.15740
        A(141)   21.69025
        A(142)   21.14802
        A(143)   20.62058
        A(144)   20.13616
        A(145)   19.58544
        A(146)   19.23279
        A(147)   18.82022
        A(148)   18.54434
        A(149)   18.36872
        A(150)   18.17204
        A(151)   18.10219
        A(152)   17.96537
        A(153)   17.80216
        A(154)   17.64539
        A(155)   17.20220
        A(156)   16.80574
        A(157)   16.24446
        A(158)   15.49422
        A(159)   14.88912
        A(160)   14.23192
        A(161)   13.71531
        A(162)   13.45660
        A(163)   13.18461
        A(164)   13.27572
        A(165)   13.39866
        A(166)   13.25800
        A(167)   12.99321
        A(168)   12.34940
        A(169)   11.60918
        A(170)   11.18909
        A(171)   10.75127
        A(172)   10.63593
        A(173)   10.63642
        A(174)   10.46519
        A(175)   10.47884
        A(176)   10.31046
        A(177)    9.94503
        A(178)    9.71014
        A(179)    9.17226
        A(180)    8.82353
        A(181)    8.60130
        A(182)    8.38888
        A(183)    8.34853
        A(184)    8.28511
        A(185)    8.05691
        A(186)    7.86295
        A(187)    7.56426
        A(188)    7.38543
        A(189)    7.33131
        A(190)    7.25271
        A(191)    7.23655
        A(192)    7.07142
        A(193)    7.00164
        A(194)    6.99275
        A(195)    6.84196
        A(196)    6.88388
        A(197)    6.56844
        A(198)    6.41190
        A(199)    6.21184
        A(200)    6.00495
        A(201)    5.82493
        A(202)    5.63760
        A(203)    5.50279
        A(204)    5.41263
        A(205)    5.32362
        A(206)    5.28843
        A(207)    5.22646
        A(208)    5.14525
        A(209)    5.07030
        A(210)    4.91345
        A(211)    4.76026
        A(212)    4.63522
        A(213)    4.52348
        A(214)    4.54138
        A(215)    4.55550
        A(216)    4.52646
        A(217)    4.48563
        A(218)    4.32466
        A(219)    4.16900
        A(220)    4.05507
        A(221)    3.90267
        A(222)    3.83568
        A(223)    3.73141
        A(224)    3.59227
        A(225)    3.48255
        A(226)    3.30577
        A(227)    3.16893
        A(228)    3.07602
        A(229)    2.96955
        A(230)    2.96322
        A(231)    2.91921
        A(232)    2.88665
        A(233)    2.87114
        A(234)    2.81105
        A(235)    2.78766
        A(236)    2.75538
        A(237)    2.68998
        A(238)    2.64713
        A(239)    2.50483
        A(240)    2.40830
        A(241)    2.28525
        A(242)    2.17730
        A(243)    2.09856
        A(244)    2.02386
        A(245)    2.00069
        A(246)    1.98530
        A(247)    1.97827
        A(248)    2.00127
        A(249)    1.98126
        A(250)    1.94625
        A(251)    1.89141
        A(252)    1.78330
        A(253)    1.69753
        A(254)    1.59492
        A(255)    1.49169
        A(256)    1.46009
        A(257)    1.43773
        A(258)    1.45099
        A(259)    1.47085
        A(260)    1.40514
        A(261)    1.33834
        A(262)    1.25584
        A(263)    1.17048
        A(264)    1.15780
        A(265)    1.11728
        A(266)    1.07250
        A(267)    1.03717
        A(268)    0.94744
        A(269)    0.90621
        A(270)    0.87698
        A(271)    0.83594
        A(272)    0.84607
        A(273)    0.80529
        A(274)    0.76206
        A(275)    0.73318
        A(276)    0.66537
        A(277)    0.64415
        A(278)    0.61566
        A(279)    0.57326
        A(280)    0.55825
        A(281)    0.50503
        A(282)    0.47505
        A(283)    0.44617
        A(284)    0.41743
        A(285)    0.39990
        A(286)    0.38543
        A(287)    0.37910
        A(288)    0.37216
        A(289)    0.37129
        A(290)    0.36373
        A(291)    0.35006
        A(292)    0.34747
        A(293)    0.33436
        A(294)    0.33233
        A(295)    0.32091
        A(296)    0.31373
        A(297)    0.30605
        A(298)    0.30995
        A(299)    0.30259
        A(300)    0.30341
        A(301)    0.30260
        A(302)    0.29617
        A(303)    0.28851
        A(304)    0.27263
        A(305)    0.25586
        A(306)    0.24557
        A(307)    0.23644
        A(308)    0.23539
        A(309)    0.23422
        A(310)    0.22850
        A(311)    0.22468
        A(312)    0.21639
        A(313)    0.20889
        A(314)    0.20602
        A(315)    0.19902
        A(316)    0.19645
        A(317)    0.19366
        A(318)    0.18815
        A(319)    0.18607
        A(320)    0.17929
        A(321)    0.17075
        A(322)    0.16344
        A(323)    0.15137
        A(324)    0.14446
        A(325)    0.13850
        A(326)    0.13343
        A(327)    0.13208
        A(328)    0.12859
        A(329)    0.12576
        A(330)    0.12350
        A(331)    0.11920
        A(332)    0.11791
        A(333)    0.11350
        A(334)    0.10933
        A(335)    0.10379
        A(336)    0.09679
        A(337)    0.09198
        A(338)    0.08784
        A(339)    0.08446
        A(340)    0.08576
        A(341)    0.08311
        A(342)    0.08411
        A(343)    0.08305
        A(344)    0.08059
        A(345)    0.07862
        A(346)    0.07344
        A(347)    0.06870
        A(348)    0.06456
        A(349)    0.06055
        A(350)    0.06139
        A(351)    0.06251
        A(352)    0.06231
        A(353)    0.06150
        A(354)    0.05586
        A(355)    0.05085
        A(356)    0.04809
        A(357)    0.04542
        A(358)    0.04668
        A(359)    0.04670
        A(360)    0.04447
        A(361)    0.04311
        A(362)    0.03843
        A(363)    0.03505
        A(364)    0.03360
        A(365)    0.03069
        A(366)    0.03108
        A(367)    0.03024
        A(368)    0.02791
        A(369)    0.02716
        A(370)    0.02341
        A(371)    0.02112
        A(372)    0.02026
        A(373)    0.01802
        A(374)    0.01869
        A(375)    0.01739
        A(376)    0.01523
        A(377)    0.01408
        A(378)    0.01075
        A(379)    0.00969
        A(380)    0.00898
        A(381)    0.00743
        A(382)    0.00770
        A(383)    0.00581
        A(384)    0.00513
        A(385)    0.00470
        A(386)    0.00396
        A(387)    0.00385
        A(388)    0.00335
        A(389)    0.00303
        A(390)    0.00279
        A(391)    0.00266
        A(392)    0.00267
        A(393)    0.00254
        A(394)    0.00262
        A(395)    0.00257
        A(396)    0.00257
        A(397)    0.00239
        A(398)    0.00219
        A(399)    0.00197
        A(400)    0.00201
        A(401)    0.00196
        A(402)    0.00196
        A(403)    0.00194
        A(404)    0.00178
        A(405)    0.00169
        A(406)    0.00162
        A(407)    0.00152
        A(408)    0.00154
        A(409)    0.00144
        A(410)    0.00135
        A(411)    0.00129
        A(412)    0.00114
        A(413)    0.00111
        A(414)    0.00109
        A(415)    0.00101
        A(416)    0.00102
        A(417)    0.00092
        A(418)    0.00082
        A(419)    0.00078
        A(420)    0.00066
        A(421)    0.00065
        A(422)    0.00063
        A(423)    0.00055
        A(424)    0.00054
        A(425)    0.00042
        A(426)    0.00036
        A(427)    0.00033
        A(428)    0.00027
        A(429)    0.00028
        A(430)    0.00026
        A(431)    0.00020
        A(432)    0.00018
        A(433)    0.00012
        A(434)    0.00010
        A(435)    0.00008
        A(436)    0.00006
        A(437)    0.00005
        A(438)    0.00003
        A(439)    0.00002
        A(440)    0.00002
        A(441)    0.00000
        A(442)    0.00003
        A(443)    0.00000
        A(444)    0.00000
        A(445)    0.00000
        A(446)    0.00000
        A(447)    0.00000
        A(448)    0.00000
        A(449)    0.00000
        A(450)    0.00000
        A(451)    0.00000
        A(452)    0.00000




 INTEGRATION WITH  17 NODES, AND A DX =12.500

  ETA (CM-1)      1.000E+04
  KAPPA (CM-1)    9.997E-08
  SIGMA (CM-1)    3.667E-04
  BETA  (CM-1)    3.668E-04
  GCOS  ( -- )    8.708E-01
        A(  1)    2.55067
        A(  2)    3.91910
        A(  3)    4.71954
        A(  4)    5.36340
        A(  5)    6.07516
        A(  6)    6.63013
        A(  7)    7.35331
        A(  8)    8.12918
        A(  9)    8.77193
        A( 10)    9.63723
        A( 11)   10.34346
        A( 12)   11.07358
        A( 13)   11.88153
        A( 14)   12.55927
        A( 15)   13.30598
        A( 16)   14.08352
        A( 17)   14.72637
        A( 18)   15.52035
        A( 19)   16.16936
        A( 20)   16.83596
        A( 21)   17.52318
        A( 22)   18.11390
        A( 23)   18.74703
        A( 24)   19.37531
        A( 25)   19.91029
        A( 26)   20.54958
        A( 27)   21.07451
        A( 28)   21.64848
        A( 29)   22.19110
        A( 30)   22.68942
        A( 31)   23.20474
        A( 32)   23.68714
        A( 33)   24.12028
        A( 34)   24.59372
        A( 35)   24.98952
        A( 36)   25.41187
        A( 37)   25.79821
        A( 38)   26.17935
        A( 39)   26.55754
        A( 40)   26.93014
        A( 41)   27.27614
        A( 42)   27.66825
        A( 43)   27.99910
        A( 44)   28.37028
        A( 45)   28.71350
        A( 46)   29.07159
        A( 47)   29.41528
        A( 48)   29.76142
        A( 49)   30.10305
        A( 50)   30.43293
        A( 51)   30.75593
        A( 52)   31.07463
        A( 53)   31.37156
        A( 54)   31.68337
        A( 55)   31.95456
        A( 56)   32.25490
        A( 57)   32.50731
        A( 58)   32.77324
        A( 59)   33.01446
        A( 60)   33.23515
        A( 61)   33.45657
        A( 62)   33.63830
        A( 63)   33.82094
        A( 64)   33.98413
        A( 65)   34.11210
        A( 66)   34.26181
        A( 67)   34.33665
        A( 68)   34.45462
        A( 69)   34.49670
        A( 70)   34.54240
        A( 71)   34.57581
        A( 72)   34.52883
        A( 73)   34.52790
        A( 74)   34.40865
        A( 75)   34.31259
        A( 76)   34.15808
        A( 77)   33.99080
        A( 78)   33.80388
        A( 79)   33.60825
        A( 80)   33.36908
        A( 81)   33.14052
        A( 82)   32.87506
        A( 83)   32.63180
        A( 84)   32.36902
        A( 85)   32.15524
        A( 86)   31.92313
        A( 87)   31.75333
        A( 88)   31.57540
        A( 89)   31.43292
        A( 90)   31.29980
        A( 91)   31.16523
        A( 92)   31.02791
        A( 93)   30.85862
        A( 94)   30.63796
        A( 95)   30.39379
        A( 96)   30.05384
        A( 97)   29.70615
        A( 98)   29.37271
        A( 99)   29.09665
        A(100)   28.89350
        A(101)   28.69832
        A(102)   28.51858
        A(103)   28.30292
        A(104)   28.10720
        A(105)   27.88024
        A(106)   27.69631
        A(107)   27.51317
        A(108)   27.38729
        A(109)   27.28377
        A(110)   27.20280
        A(111)   27.10550
        A(112)   27.01964
        A(113)   26.87988
        A(114)   26.69386
        A(115)   26.49341
        A(116)   26.18706
        A(117)   25.87872
        A(118)   25.49465
        A(119)   25.09252
        A(120)   24.71685
        A(121)   24.34685
        A(122)   23.97813
        A(123)   23.62269
        A(124)   23.22232
        A(125)   22.82213
        A(126)   22.48215
        A(127)   22.17241
        A(128)   21.93693
        A(129)   21.75163
        A(130)   21.54343
        A(131)   21.39603
        A(132)   21.19666
        A(133)   20.95086
        A(134)   20.74242
        A(135)   20.35782
        A(136)   19.92523
        A(137)   19.44531
        A(138)   18.87171
        A(139)   18.39206
        A(140)   17.95378
        A(141)   17.54425
        A(142)   17.37463
        A(143)   17.22749
        A(144)   17.07325
        A(145)   16.86975
        A(146)   16.45906
        A(147)   16.02633
        A(148)   15.70839
        A(149)   15.40355
        A(150)   15.31451
        A(151)   15.24214
        A(152)   15.09789
        A(153)   15.02689
        A(154)   14.80419
        A(155)   14.54538
        A(156)   14.34436
        A(157)   13.99350
        A(158)   13.74234
        A(159)   13.40386
        A(160)   13.09486
        A(161)   12.77801
        A(162)   12.51276
        A(163)   12.19711
        A(164)   11.97848
        A(165)   11.75117
        A(166)   11.58726
        A(167)   11.29087
        A(168)   11.04969
        A(169)   10.79977
        A(170)   10.63304
        A(171)   10.52706
        A(172)   10.43372
        A(173)   10.40768
        A(174)   10.29833
        A(175)   10.16479
        A(176)    9.99285
        A(177)    9.67512
        A(178)    9.35618
        A(179)    8.97426
        A(180)    8.56506
        A(181)    8.25386
        A(182)    7.97039
        A(183)    7.75475
        A(184)    7.64655
        A(185)    7.48907
        A(186)    7.38934
        A(187)    7.29642
        A(188)    7.09031
        A(189)    6.89734
        A(190)    6.64590
        A(191)    6.40627
        A(192)    6.31810
        A(193)    6.24002
        A(194)    6.18408
        A(195)    6.12234
        A(196)    5.94074
        A(197)    5.75091
        A(198)    5.60392
        A(199)    5.38524
        A(200)    5.28097
        A(201)    5.06902
        A(202)    4.83866
        A(203)    4.67947
        A(204)    4.44841
        A(205)    4.34105
        A(206)    4.24830
        A(207)    4.10961
        A(208)    4.05167
        A(209)    3.89563
        A(210)    3.79168
        A(211)    3.69317
        A(212)    3.61338
        A(213)    3.56067
        A(214)    3.55573
        A(215)    3.54223
        A(216)    3.48369
        A(217)    3.39507
        A(218)    3.26122
        A(219)    3.08997
        A(220)    2.95546
        A(221)    2.81015
        A(222)    2.71045
        A(223)    2.64121
        A(224)    2.55529
        A(225)    2.51623
        A(226)    2.47677
        A(227)    2.42468
        A(228)    2.40607
        A(229)    2.34376
        A(230)    2.27955
        A(231)    2.20034
        A(232)    2.06831
        A(233)    1.94228
        A(234)    1.84619
        A(235)    1.78363
        A(236)    1.80672
        A(237)    1.82690
        A(238)    1.81959
        A(239)    1.77188
        A(240)    1.68351
        A(241)    1.58289
        A(242)    1.52537
        A(243)    1.43959
        A(244)    1.39420
        A(245)    1.35618
        A(246)    1.29544
        A(247)    1.27647
        A(248)    1.23077
        A(249)    1.17825
        A(250)    1.14944
        A(251)    1.08179
        A(252)    1.05251
        A(253)    1.02645
        A(254)    0.99715
        A(255)    0.98937
        A(256)    0.96224
        A(257)    0.93254
        A(258)    0.90568
        A(259)    0.86211
        A(260)    0.83575
        A(261)    0.79143
        A(262)    0.76567
        A(263)    0.73279
        A(264)    0.71614
        A(265)    0.69651
        A(266)    0.68508
        A(267)    0.67574
        A(268)    0.68395
        A(269)    0.66731
        A(270)    0.66415
        A(271)    0.64989
        A(272)    0.62804
        A(273)    0.60796
        A(274)    0.57774
        A(275)    0.55749
        A(276)    0.54291
        A(277)    0.52723
        A(278)    0.52900
        A(279)    0.52914
        A(280)    0.52592
        A(281)    0.52029
        A(282)    0.48893
        A(283)    0.45631
        A(284)    0.43109
        A(285)    0.40852
        A(286)    0.40985
        A(287)    0.40738
        A(288)    0.39569
        A(289)    0.38598
        A(290)    0.35865
        A(291)    0.33898
        A(292)    0.32985
        A(293)    0.31542
        A(294)    0.31875
        A(295)    0.31453
        A(296)    0.30252
        A(297)    0.29637
        A(298)    0.27400
        A(299)    0.25802
        A(300)    0.24824
        A(301)    0.23140
        A(302)    0.22974
        A(303)    0.21745
        A(304)    0.20255
        A(305)    0.19282
        A(306)    0.17419
        A(307)    0.16911
        A(308)    0.16657
        A(309)    0.16059
        A(310)    0.16394
        A(311)    0.15326
        A(312)    0.14958
        A(313)    0.14348
        A(314)    0.13698
        A(315)    0.13157
        A(316)    0.12494
        A(317)    0.12049
        A(318)    0.11735
        A(319)    0.11490
        A(320)    0.11646
        A(321)    0.11563
        A(322)    0.11517
        A(323)    0.11443
        A(324)    0.10927
        A(325)    0.10420
        A(326)    0.09706
        A(327)    0.08977
        A(328)    0.08785
        A(329)    0.08638
        A(330)    0.08658
        A(331)    0.08657
        A(332)    0.08186
        A(333)    0.07840
        A(334)    0.07492
        A(335)    0.07147
        A(336)    0.07185
        A(337)    0.06960
        A(338)    0.06691
        A(339)    0.06458
        A(340)    0.05925
        A(341)    0.05676
        A(342)    0.05460
        A(343)    0.05147
        A(344)    0.05107
        A(345)    0.04759
        A(346)    0.04454
        A(347)    0.04264
        A(348)    0.03905
        A(349)    0.03850
        A(350)    0.03740
        A(351)    0.03532
        A(352)    0.03460
        A(353)    0.03109
        A(354)    0.02898
        A(355)    0.02690
        A(356)    0.02460
        A(357)    0.02350
        A(358)    0.02180
        A(359)    0.02065
        A(360)    0.01993
        A(361)    0.01908
        A(362)    0.01924
        A(363)    0.01854
        A(364)    0.01844
        A(365)    0.01762
        A(366)    0.01687
        A(367)    0.01593
        A(368)    0.01489
        A(369)    0.01383
        A(370)    0.01372
        A(371)    0.01316
        A(372)    0.01354
        A(373)    0.01396
        A(374)    0.01363
        A(375)    0.01313
        A(376)    0.01182
        A(377)    0.01054
        A(378)    0.01015
        A(379)    0.00971
        A(380)    0.00990
        A(381)    0.01002
        A(382)    0.00945
        A(383)    0.00925
        A(384)    0.00859
        A(385)    0.00783
        A(386)    0.00762
        A(387)    0.00679
        A(388)    0.00648
        A(389)    0.00635
        A(390)    0.00587
        A(391)    0.00604
        A(392)    0.00570
        A(393)    0.00509
        A(394)    0.00483
        A(395)    0.00391
        A(396)    0.00361
        A(397)    0.00349
        A(398)    0.00313
        A(399)    0.00328
        A(400)    0.00291
        A(401)    0.00243
        A(402)    0.00225
        A(403)    0.00167
        A(404)    0.00166
        A(405)    0.00152
        A(406)    0.00122
        A(407)    0.00110
        A(408)    0.00064
        A(409)    0.00042
        A(410)    0.00044
        A(411)    0.00021
        A(412)    0.00044
        A(413)    0.00015
        A(414)    0.00009
        A(415)    0.00006
        A(416)    0.00002
        A(417)    0.00002
        A(418)    0.00004
        A(419)    0.00002
        A(420)    0.00003
        A(421)   -0.00001
        A(422)    0.00000
        A(423)    0.00001
        A(424)    0.00000
        A(425)    0.00001
        A(426)    0.00000
        A(427)    0.00000
        A(428)    0.00000
        A(429)    0.00000
        A(430)    0.00000
        A(431)    0.00000
        A(432)    0.00000
        A(433)    0.00000
        A(434)    0.00000
        A(435)    0.00000
        A(436)    0.00000
        A(437)    0.00000
        A(438)    0.00000
        A(439)    0.00000
        A(440)    0.00000
        A(441)    0.00000
        A(442)    0.00000
        A(443)    0.00000
        A(444)    0.00000
        A(445)    0.00000
        A(446)    0.00000
        A(447)    0.00000
        A(448)    0.00000
        A(449)    0.00000
        A(450)    0.00000
        A(451)    0.00000
        A(452)    0.00000




 INTEGRATION WITH  33 NODES, AND A DX = 6.250

  ETA (CM-1)      1.000E+04
  KAPPA (CM-1)    1.015E-07
  SIGMA (CM-1)    3.681E-04
  BETA  (CM-1)    3.682E-04
  GCOS  ( -- )    8.716E-01
        A(  1)    2.52586
        A(  2)    3.88357
        A(  3)    4.68158
        A(  4)    5.32619
        A(  5)    6.04063
        A(  6)    6.59512
        A(  7)    7.31633
        A(  8)    8.08751
        A(  9)    8.72379
        A( 10)    9.58797
        A( 11)   10.29163
        A( 12)   11.02512
        A( 13)   11.83465
        A( 14)   12.50898
        A( 15)   13.25569
        A( 16)   14.02790
        A( 17)   14.66279
        A( 18)   15.45115
        A( 19)   16.09449
        A( 20)   16.75964
        A( 21)   17.44764
        A( 22)   18.03674
        A( 23)   18.67088
        A( 24)   19.29784
        A( 25)   19.84039
        A( 26)   20.49199
        A( 27)   21.01716
        A( 28)   21.60211
        A( 29)   22.16625
        A( 30)   22.68591
        A( 31)   23.23008
        A( 32)   23.74212
        A( 33)   24.21567
        A( 34)   24.72936
        A( 35)   25.15963
        A( 36)   25.62808
        A( 37)   26.05715
        A( 38)   26.46865
        A( 39)   26.87991
        A( 40)   27.27088
        A( 41)   27.62578
        A( 42)   28.01285
        A( 43)   28.32299
        A( 44)   28.67838
        A( 45)   28.97088
        A( 46)   29.26858
        A( 47)   29.55178
        A( 48)   29.79735
        A( 49)   30.04934
        A( 50)   30.27401
        A( 51)   30.47075
        A( 52)   30.68805
        A( 53)   30.83053
        A( 54)   31.02734
        A( 55)   31.14113
        A( 56)   31.29440
        A( 57)   31.40194
        A( 58)   31.50278
        A( 59)   31.60595
        A( 60)   31.66973
        A( 61)   31.75214
        A( 62)   31.81174
        A( 63)   31.87187
        A( 64)   31.94188
        A( 65)   31.99092
        A( 66)   32.06063
        A( 67)   32.09811
        A( 68)   32.16028
        A( 69)   32.19535
        A( 70)   32.23742
        A( 71)   32.27638
        A( 72)   32.28583
        A( 73)   32.31876
        A( 74)   32.29523
        A( 75)   32.28590
        A( 76)   32.23938
        A( 77)   32.18760
        A( 78)   32.12857
        A( 79)   32.03964
        A( 80)   31.96083
        A( 81)   31.85683
        A( 82)   31.76856
        A( 83)   31.67197
        A( 84)   31.59945
        A( 85)   31.54017
        A( 86)   31.48217
        A( 87)   31.43988
        A( 88)   31.36365
        A( 89)   31.27598
        A( 90)   31.20357
        A( 91)   31.08313
        A( 92)   31.00826
        A( 93)   30.87418
        A( 94)   30.72048
        A( 95)   30.53056
        A( 96)   30.29272
        A( 97)   30.01328
        A( 98)   29.73628
        A( 99)   29.42400
        A(100)   29.12375
        A(101)   28.80475
        A(102)   28.48407
        A(103)   28.19821
        A(104)   27.95004
        A(105)   27.70801
        A(106)   27.52934
        A(107)   27.37761
        A(108)   27.21257
        A(109)   27.06641
        A(110)   26.83408
        A(111)   26.58555
        A(112)   26.36182
        A(113)   26.11371
        A(114)   25.89481
        A(115)   25.66260
        A(116)   25.34601
        A(117)   25.01278
        A(118)   24.62366
        A(119)   24.16943
        A(120)   23.77295
        A(121)   23.33260
        A(122)   22.94227
        A(123)   22.57436
        A(124)   22.19497
        A(125)   21.89066
        A(126)   21.66750
        A(127)   21.44951
        A(128)   21.31843
        A(129)   21.20384
        A(130)   21.05403
        A(131)   20.86555
        A(132)   20.59747
        A(133)   20.28171
        A(134)   20.03624
        A(135)   19.75523
        A(136)   19.49540
        A(137)   19.21170
        A(138)   18.84370
        A(139)   18.47996
        A(140)   18.07754
        A(141)   17.62019
        A(142)   17.24192
        A(143)   16.84462
        A(144)   16.48114
        A(145)   16.20040
        A(146)   15.90285
        A(147)   15.66534
        A(148)   15.51304
        A(149)   15.33473
        A(150)   15.22723
        A(151)   15.10410
        A(152)   14.91987
        A(153)   14.71520
        A(154)   14.43303
        A(155)   14.10952
        A(156)   13.86980
        A(157)   13.59921
        A(158)   13.32185
        A(159)   13.02556
        A(160)   12.62394
        A(161)   12.24308
        A(162)   11.91638
        A(163)   11.54917
        A(164)   11.33155
        A(165)   11.10433
        A(166)   10.85403
        A(167)   10.66381
        A(168)   10.42383
        A(169)   10.25170
        A(170)   10.15934
        A(171)    9.99114
        A(172)    9.89038
        A(173)    9.72621
        A(174)    9.51616
        A(175)    9.32132
        A(176)    9.11528
        A(177)    8.87512
        A(178)    8.72809
        A(179)    8.54363
        A(180)    8.32084
        A(181)    8.09291
        A(182)    7.76038
        A(183)    7.44784
        A(184)    7.20968
        A(185)    6.95778
        A(186)    6.82364
        A(187)    6.70818
        A(188)    6.56490
        A(189)    6.48889
        A(190)    6.35835
        A(191)    6.23455
        A(192)    6.15382
        A(193)    6.00780
        A(194)    5.90457
        A(195)    5.74766
        A(196)    5.57022
        A(197)    5.37041
        A(198)    5.20076
        A(199)    5.04703
        A(200)    4.97224
        A(201)    4.86544
        A(202)    4.75391
        A(203)    4.56526
        A(204)    4.37730
        A(205)    4.18933
        A(206)    4.07115
        A(207)    3.94674
        A(208)    3.86114
        A(209)    3.80474
        A(210)    3.71592
        A(211)    3.65884
        A(212)    3.59251
        A(213)    3.48795
        A(214)    3.43383
        A(215)    3.32476
        A(216)    3.21410
        A(217)    3.11371
        A(218)    2.98365
        A(219)    2.87755
        A(220)    2.79807
        A(221)    2.71199
        A(222)    2.66986
        A(223)    2.61545
        A(224)    2.52157
        A(225)    2.41786
        A(226)    2.31022
        A(227)    2.19931
        A(228)    2.17197
        A(229)    2.11987
        A(230)    2.09665
        A(231)    2.07255
        A(232)    2.01921
        A(233)    1.97192
        A(234)    1.92660
        A(235)    1.86589
        A(236)    1.83343
        A(237)    1.76271
        A(238)    1.69676
        A(239)    1.63300
        A(240)    1.56417
        A(241)    1.52426
        A(242)    1.49408
        A(243)    1.44765
        A(244)    1.41570
        A(245)    1.35800
        A(246)    1.29275
        A(247)    1.23054
        A(248)    1.18453
        A(249)    1.15238
        A(250)    1.15498
        A(251)    1.15476
        A(252)    1.14275
        A(253)    1.12463
        A(254)    1.08665
        A(255)    1.04372
        A(256)    1.01446
        A(257)    0.97463
        A(258)    0.95200
        A(259)    0.92818
        A(260)    0.89263
        A(261)    0.87031
        A(262)    0.83574
        A(263)    0.80450
        A(264)    0.78907
        A(265)    0.76118
        A(266)    0.74687
        A(267)    0.72046
        A(268)    0.68055
        A(269)    0.64541
        A(270)    0.61137
        A(271)    0.59641
        A(272)    0.59948
        A(273)    0.59753
        A(274)    0.59629
        A(275)    0.57516
        A(276)    0.55362
        A(277)    0.52645
        A(278)    0.50811
        A(279)    0.48400
        A(280)    0.46748
        A(281)    0.45526
        A(282)    0.43933
        A(283)    0.43322
        A(284)    0.42503
        A(285)    0.41001
        A(286)    0.39975
        A(287)    0.37989
        A(288)    0.36321
        A(289)    0.34918
        A(290)    0.33283
        A(291)    0.32176
        A(292)    0.31442
        A(293)    0.30727
        A(294)    0.30495
        A(295)    0.29830
        A(296)    0.28836
        A(297)    0.27583
        A(298)    0.26453
        A(299)    0.25148
        A(300)    0.24541
        A(301)    0.23591
        A(302)    0.22846
        A(303)    0.22091
        A(304)    0.21407
        A(305)    0.20591
        A(306)    0.20235
        A(307)    0.19564
        A(308)    0.19222
        A(309)    0.18452
        A(310)    0.17528
        A(311)    0.16836
        A(312)    0.15928
        A(313)    0.15450
        A(314)    0.15255
        A(315)    0.14927
        A(316)    0.14760
        A(317)    0.14145
        A(318)    0.13347
        A(319)    0.12551
        A(320)    0.11913
        A(321)    0.11437
        A(322)    0.11257
        A(323)    0.11046
        A(324)    0.10690
        A(325)    0.10376
        A(326)    0.09887
        A(327)    0.09362
        A(328)    0.09143
        A(329)    0.08725
        A(330)    0.08621
        A(331)    0.08398
        A(332)    0.08034
        A(333)    0.07774
        A(334)    0.07401
        A(335)    0.07035
        A(336)    0.06952
        A(337)    0.06779
        A(338)    0.06737
        A(339)    0.06520
        A(340)    0.06065
        A(341)    0.05622
        A(342)    0.05173
        A(343)    0.04872
        A(344)    0.04784
        A(345)    0.04688
        A(346)    0.04617
        A(347)    0.04474
        A(348)    0.04302
        A(349)    0.04015
        A(350)    0.03846
        A(351)    0.03491
        A(352)    0.03336
        A(353)    0.03275
        A(354)    0.03093
        A(355)    0.03141
        A(356)    0.02940
        A(357)    0.02794
        A(358)    0.02756
        A(359)    0.02558
        A(360)    0.02443
        A(361)    0.02282
        A(362)    0.02107
        A(363)    0.02017
        A(364)    0.01933
        A(365)    0.01845
        A(366)    0.01814
        A(367)    0.01720
        A(368)    0.01650
        A(369)    0.01565
        A(370)    0.01471
        A(371)    0.01382
        A(372)    0.01293
        A(373)    0.01203
        A(374)    0.01135
        A(375)    0.01057
        A(376)    0.01025
        A(377)    0.00948
        A(378)    0.00937
        A(379)    0.00898
        A(380)    0.00892
        A(381)    0.00843
        A(382)    0.00772
        A(383)    0.00718
        A(384)    0.00639
        A(385)    0.00607
        A(386)    0.00605
        A(387)    0.00581
        A(388)    0.00573
        A(389)    0.00519
        A(390)    0.00457
        A(391)    0.00412
        A(392)    0.00374
        A(393)    0.00357
        A(394)    0.00352
        A(395)    0.00334
        A(396)    0.00312
        A(397)    0.00287
        A(398)    0.00255
        A(399)    0.00226
        A(400)    0.00216
        A(401)    0.00191
        A(402)    0.00194
        A(403)    0.00184
        A(404)    0.00170
        A(405)    0.00161
        A(406)    0.00142
        A(407)    0.00121
        A(408)    0.00116
        A(409)    0.00101
        A(410)    0.00106
        A(411)    0.00098
        A(412)    0.00084
        A(413)    0.00078
        A(414)    0.00056
        A(415)    0.00049
        A(416)    0.00045
        A(417)    0.00034
        A(418)    0.00036
        A(419)    0.00023
        A(420)    0.00016
        A(421)    0.00013
        A(422)    0.00008
        A(423)    0.00008
        A(424)    0.00006
        A(425)    0.00004
        A(426)    0.00003
        A(427)    0.00001
        A(428)    0.00001
        A(429)    0.00000
        A(430)    0.00000
        A(431)   -0.00001
        A(432)    0.00000
        A(433)    0.00000
        A(434)    0.00000
        A(435)    0.00000
        A(436)    0.00000
        A(437)    0.00000
        A(438)    0.00000
        A(439)    0.00000
        A(440)    0.00000
        A(441)    0.00000
        A(442)    0.00000
        A(443)    0.00000
        A(444)    0.00000
        A(445)    0.00000
        A(446)    0.00000
        A(447)    0.00000
        A(448)    0.00000
        A(449)    0.00000
        A(450)    0.00000
        A(451)    0.00000
        A(452)    0.00000


  PHASEFUNCTION
  DEG.              PHI
    0             4.260E+03
    5             1.758E+01
   10             8.615E+00
   15             5.157E+00
   20             4.088E+00
   25             3.059E+00
   30             2.206E+00
   35             1.287E+00
   40             1.089E+00
   45             6.978E-01
   50             7.122E-01
   55             3.592E-01
   60             2.251E-01
   65             1.581E-01
   70             1.343E-01
   75             9.730E-02
   80             8.906E-02
   85             6.900E-02
   90             5.605E-02
   95             4.968E-02
  100             5.518E-02
  105             5.099E-02
  110             4.992E-02
  115             5.291E-02
  120             5.204E-02
  125             8.062E-02
  130             5.287E-02
  135             2.674E-01
  140             2.485E-01
  145             1.552E-01
  150             1.190E-01
  155             1.194E-01
  160             1.216E-01
  165             1.328E-01
  170             1.030E-01
  175             1.690E-01
  180             9.319E-01
